time_ms,label,ax,ay,az,gx,gy,gz
646,2,-2452,16052,1044,-184,1515,-823
656,2,-2336,15864,1188,-231,1260,-993
666,2,-2180,15864,1252,-274,1099,-1154
676,2,-1860,15760,1452,-322,1006,-1204
686,2,-1764,15600,1392,-373,1063,-1199
696,2,-1708,15408,1444,-375,1159,-1177
706,2,-1852,15340,1212,-342,1214,-1109
716,2,-2188,15256,972,-285,1131,-1021
726,2,-2404,15064,1120,-278,890,-916
736,2,-2556,14916,1236,-251,559,-781
746,2,-2588,14784,1080,-245,61,-612
756,2,-2504,14864,1184,-293,-504,-412
766,2,-2008,14828,1252,-344,-985,-189
776,2,-1528,14796,1464,-378,-1366,51
786,2,-996,14920,1500,-409,-1682,250
796,2,-648,14896,1588,-466,-1867,434
806,2,-404,15172,1616,-470,-1934,576
816,2,-268,15400,1532,-481,-1910,688
826,2,-248,15484,1460,-490,-1815,745
836,2,-488,15616,1384,-473,-1783,756
846,2,-636,15424,1348,-488,-1782,736
856,2,-792,15416,820,-449,-1759,688
866,2,-944,15796,1096,-435,-1757,608
876,2,-856,15856,1108,-400,-1740,539
886,2,-896,15912,1008,-359,-1724,480
896,2,-756,16000,1020,-341,-1665,385
906,2,-576,16008,1024,-302,-1527,304
916,2,-464,15920,1100,-235,-1258,193
926,2,-224,15952,1096,-184,-955,119
936,2,-292,15956,1052,-113,-628,60
946,2,-336,15884,1064,-44,-344,-52
956,2,-508,15868,1180,18,-119,-140
966,2,-644,15964,1204,63,44,-208
976,2,-900,15892,1236,90,155,-250
986,2,-904,15780,1156,92,217,-261
996,2,-932,15800,1204,134,288,-285
1006,2,-892,15760,1316,122,317,-292
1016,2,-960,15636,1380,134,366,-306
1026,2,-1028,15684,1488,118,381,-309
1036,2,-1116,15692,1572,119,416,-323
1046,2,-992,15476,1504,121,452,-316
1056,2,-1152,15444,1728,119,497,-294
1066,2,-1260,15596,1760,116,480,-279
1076,2,-1288,15576,1796,89,391,-236
1086,2,-1188,15604,1800,70,292,-217
1096,2,-1368,15548,1824,66,201,-175
1106,2,-1504,15472,1856,80,55,-125
1116,2,-1464,15572,1872,72,-94,-99
1126,2,-1516,15468,1772,67,-236,-46
1136,2,-1460,15560,1876,46,-387,5
1146,2,-1524,15432,2000,38,-481,35
1156,2,-1336,15504,1940,58,-531,69
1166,2,-1276,15588,1700,40,-572,81
1176,2,-1320,15520,1700,27,-587,116
1186,2,-1472,15552,1712,7,-597,122
1196,2,-1328,15636,1464,4,-609,140
1206,2,-1460,15632,1540,3,-631,155
1216,2,-1432,15604,1452,-9,-639,155
1226,2,-1232,15600,1508,-14,-652,172
1236,2,-1444,15760,1280,-10,-667,160
1246,2,-1304,15696,1396,-3,-672,152
1256,2,-1328,15716,1516,5,-654,147
1266,2,-1260,15864,1200,-5,-639,123
1276,2,-1184,15860,1328,-2,-583,103
1286,2,-1076,15768,1284,-6,-575,61
1296,2,-1124,15876,1516,-23,-524,44
1306,2,-1180,15948,1544,-36,-518,14
1316,2,-1144,15852,1360,-53,-550,-25
1326,2,-968,15960,1408,-85,-551,-61
1336,2,-968,15844,1496,-101,-542,-93
1346,2,-832,15852,1380,-116,-530,-117
1356,2,-840,15752,1408,-133,-520,-125
1366,2,-872,15824,1416,-150,-498,-139
1376,2,-816,15968,1548,-157,-463,-141
1386,2,-876,15912,1388,-174,-410,-150
1396,2,-856,15952,1344,-170,-393,-160
1406,2,-784,15880,1420,-188,-358,-167
1416,2,-760,15700,1212,-180,-285,-172
1426,2,-744,15704,1348,-175,-219,-167
1436,2,-872,15736,1120,-173,-176,-149
1446,2,-860,15876,1144,-169,-134,-135
1456,2,-996,16076,1124,-173,-119,-97
1466,2,-1016,16260,1116,-177,-116,-55
1476,2,-1068,16420,1056,-203,-109,20
1486,2,-1140,16476,1084,-232,-62,67
1496,2,-1080,16560,1072,-246,-11,113
1506,2,-1000,16484,1000,-286,82,143
1516,2,-1076,16236,848,-321,161,128
1526,2,-988,15960,792,-358,250,106
1536,2,-892,15840,996,-399,334,72
1546,2,-792,15892,848,-436,430,38
1556,2,-828,15972,880,-463,512,28
1566,2,-780,15992,1072,-519,574,-6
1576,2,-628,16092,1296,-561,638,-38
1586,2,-440,16132,1152,-605,727,-62
1596,2,-384,15924,984,-638,861,-93
1606,2,-384,16072,1004,-649,1020,-122
1616,2,-356,16040,1020,-643,1179,-153
1626,2,-428,15892,1024,-654,1316,-193
1636,2,-420,15804,1060,-594,1441,-215
1646,2,-532,15644,1044,-535,1569,-212
1656,2,-924,15676,1124,-402,1563,-160
1666,2,-1784,15644,1448,-208,1358,-41
1676,2,-2068,15764,2336,5,1228,86
1686,2,-1716,16168,3332,175,1377,136
1696,2,-780,16616,3736,307,1827,69
1706,2,208,16688,4680,424,2336,-136
1716,2,864,16844,4452,420,2893,-333
1726,2,488,16676,3828,242,3037,-594
1736,2,-1064,16556,3620,-25,2613,-819
1746,2,-3680,16508,3424,-201,1754,-987
1756,2,-6068,16604,3428,-445,451,-1104
1766,2,-7184,16616,4296,-761,-975,-1240
1776,2,-6368,16576,5748,-1064,-2140,-1395
1786,2,-4224,16604,6712,-1447,-2624,-1501
1796,2,-1844,16788,6848,-1657,-2229,-1643
1806,2,-856,16912,6992,-1735,-920,-1808
1816,2,-1448,16924,6972,-1664,733,-1998
1826,2,-3148,16912,6800,-1697,1920,-2267
1836,2,-4716,16908,6292,-1840,2257,-2568
1846,2,-5448,16628,5984,-2058,2119,-2804
1856,2,-5844,16576,5684,-2268,1829,-2945
1866,2,-5644,16144,5604,-2507,1532,-3046
1876,2,-5320,15732,5276,-2715,1275,-3213
1886,2,-5116,15312,5316,-2878,1178,-3393
1896,2,-5032,14948,4896,-2987,1113,-3595
1906,2,-4948,14448,4492,-3042,1056,-3706
1916,2,-5228,14144,4268,-3080,880,-3751
1926,2,-5324,13544,3808,-3089,678,-3716
1936,2,-4960,13388,3368,-3074,503,-3645
1946,2,-4584,13224,2992,-3031,416,-3337
1956,2,-4944,13040,2700,-2923,323,-3342
1966,2,-4992,13256,2260,-2975,-122,-3345
1976,2,-4464,13216,1388,-2907,-339,-3249
1986,2,-4044,13232,1108,-2813,-463,-3200
1996,2,-3824,13172,684,-2660,-595,-3174
2006,2,-3604,12928,60,-2510,-697,-3093
2016,2,-3348,13020,-136,-2353,-754,-3010
2026,2,-3044,13116,-448,-2216,-723,-3002
2036,2,-2620,13620,-584,-2073,-650,-2935
2046,2,-1828,13964,-480,-1920,-181,-2536
2056,2,-1508,14044,-624,-1739,417,-2508
2066,2,-1612,14328,-724,-1531,538,-2689
2076,2,-1672,14448,-1040,-1325,633,-2899
2086,2,-1176,14428,-1252,-1157,789,-2754
2096,2,-728,13940,-1292,-827,1302,-2389
2106,2,-1812,13484,-1616,-558,1248,-2935
2116,2,-2468,13952,-1664,-501,555,-3326
2126,2,-2364,14412,-1504,-364,324,-2947
2136,2,-2312,14644,-1308,-154,190,-2228
2146,2,-1828,14672,-1040,86,84,-1337
2156,2,-1864,14484,-700,342,-102,-941
2166,2,-2156,14268,-296,518,-624,-963
2176,2,-1892,14408,48,661,-1068,-894
2186,2,-1364,14128,332,824,-1141,-577
2196,2,-1028,13804,528,1058,-914,-253
2206,2,-784,13480,692,1297,-653,-2
2216,2,-924,13428,948,1541,-371,230
2226,2,-1340,13552,860,1711,-307,297
2236,2,-1540,14024,1064,1800,-434,398
2246,2,-1424,14516,936,1899,-435,644
2256,2,-1060,14708,872,1986,-310,1168
2266,2,-948,14864,944,2121,43,1765
2276,2,-852,15016,1280,2259,486,2215
2286,2,-916,15236,1332,2403,1024,2559
2296,2,-1136,15388,1388,2552,1434,2809
2306,2,-1500,15644,1388,2676,1687,3065
2316,2,-1908,16032,1732,2725,1824,3279
2326,2,-2300,16468,2112,2653,1855,3500
2336,2,-1708,16316,1716,2517,2100,3864
2346,2,-1552,17028,2508,2242,2120,4142
2356,2,-860,17304,3356,1828,4209,4357
2366,2,-740,17436,3496,1816,6177,4404
2376,2,-2008,17940,2736,1837,7023,4388
2386,2,-4196,18012,2088,1602,7159,4517
2396,2,-6020,17488,1100,1444,5920,4581
2406,2,-6976,16932,280,1303,3992,4685
2416,2,-7272,16612,72,1190,1990,4957
2426,2,-6888,16420,448,1166,435,5280
2436,2,-6276,16288,1392,1301,-590,5582
2446,2,-5604,16048,2160,1442,-1224,5816
2456,2,-5432,15908,2848,1597,-1805,6027
2466,2,-5420,16016,3312,1726,-2553,6042
2476,2,-5400,16544,3328,1705,-3349,6127
2486,2,-5272,17028,3612,1475,-4147,6183
2496,2,-5096,17328,3296,1213,-4878,5915
2506,2,-4456,17260,3164,955,-5200,5550
2516,2,-3836,16904,3000,718,-5122,5115
2526,2,-3204,16244,2648,619,-4848,4667
2536,2,-2972,15692,2332,593,-4511,4191
2546,2,-2492,15232,1740,629,-3930,3677
2556,2,-1980,15068,2036,726,-3380,3165
2566,2,-1744,15232,2192,862,-2829,2701
2576,2,-1640,15756,2340,932,-2283,2279
2586,2,-1956,15884,2192,870,-2027,1740
2596,2,-1880,15820,3140,1021,-1558,1708
2606,2,-2468,16368,3832,863,-1084,1381
2616,2,-2416,16772,4080,640,-683,1176
2626,2,-2360,16816,4088,504,-99,877
2636,2,-2648,16524,3764,468,644,598
2646,2,-3172,16424,3640,502,1290,429
2656,2,-3476,16404,3952,519,1807,229
2666,2,-4204,16584,4236,436,1915,62
2676,2,-3928,16620,4508,210,1922,-359
2686,2,-3688,16780,5624,-118,2015,-835
2696,2,-3160,16752,6120,-556,2165,-1308
2706,2,-2544,16636,5776,-934,2602,-1836
2716,2,-2840,16484,5516,-1160,3124,-2159
2726,2,-4100,16220,5360,-1276,3495,-2217
2736,2,-5428,15760,5300,-1423,3758,-2155
2746,2,-6576,15760,5476,-1554,3651,-2177
2756,2,-6272,15100,5328,-1586,3660,-1821
2766,2,-7256,15416,4756,-1620,3312,-2051
2776,2,-8208,15772,4440,-1793,2204,-2835
2786,2,-8224,16112,4076,-2080,818,-3516
2796,2,-7708,16304,4140,-2315,-448,-3922
2806,2,-6840,16912,3868,-2474,-1352,-4266
2816,2,-5520,17228,3120,-2623,-2223,-4531
2826,2,-4948,17376,3028,-2865,-2795,-5020
2836,2,-4124,17240,2540,-2989,-3256,-5408
2846,2,-2500,17032,2084,-2944,-2977,-5138
2856,2,-2092,17312,1564,-2844,-2367,-5073
2866,2,-2212,17456,1084,-2732,-2086,-5430
2876,2,-2112,17684,804,-2692,-1990,-5745
2886,2,-1992,17392,572,-2625,-1878,-5842
2896,2,-1776,17256,356,-2564,-1883,-5921
2906,2,-1380,17128,600,-2506,-1789,-6036
2916,2,-844,16860,936,-2453,-1603,-6150
2926,2,-788,16556,916,-2394,-1367,-6291
2936,2,-1180,16468,352,-2309,-1234,-6457
2946,2,-1296,15956,-600,-2194,-1172,-6518
2956,2,-1584,15428,-832,-2144,-1255,-6572
2966,2,-2080,14928,-832,-2062,-1501,-6430
2976,2,-3004,14560,-824,-2009,-2196,-6336
2986,2,-4696,15016,-736,-2076,-4126,-6103
2996,2,-4472,13840,-720,-1948,-5419,-5678
3006,2,-548,12500,-752,-1853,-5642,-4552
3016,2,800,13032,-240,-1788,-6082,-3690
3026,2,-408,13784,48,-1585,-6712,-3482
3036,2,-892,13904,-804,-1478,-7008,-3224
3046,2,-436,13100,-284,-1381,-6627,-2215
3056,2,104,13464,-176,-1234,-6377,-2309
3066,2,1212,13320,-364,-899,-5884,-2057
3076,2,1608,13276,-408,-546,-4760,-1745
3086,2,1604,13496,-196,-129,-3390,-1232
3096,2,1304,13940,212,201,-1930,-714
3106,2,852,14464,908,438,-927,-495
3116,2,772,14972,1020,600,-247,-250
3126,2,668,15456,788,697,262,-32
3136,2,384,15732,572,676,459,45
3146,2,172,15652,892,645,436,214
3156,2,332,15740,952,608,919,582
3166,2,56,15976,1916,364,1390,928
3176,2,-388,15992,2580,321,1790,1015
3186,2,-540,16132,2584,297,2226,1035
3196,2,-836,16492,2968,191,2632,1063
3206,2,-1356,16612,3132,131,2909,986
3216,2,-2120,16652,3244,89,3049,939
3226,2,-2884,16272,3184,81,2739,894
3236,2,-3728,15816,3420,188,2057,1058
3246,2,-3780,15056,2904,331,1337,1400
3256,2,-1852,14180,2460,646,1024,1897
3266,2,944,13816,1700,1044,1676,2522
