time_ms,label,ax,ay,az,gx,gy,gz
586,2,-448,16220,1256,-592,-541,-593
596,2,-524,16064,1188,-639,-395,-584
606,2,-460,15992,1120,-681,-285,-590
616,2,-620,15980,1044,-707,-224,-545
626,2,-724,15844,1044,-800,-139,-501
636,2,-744,15728,1108,-799,26,-436
646,2,-892,15480,716,-778,205,-374
656,2,-1088,15336,860,-755,417,-321
666,2,-1084,15152,452,-717,679,-254
676,2,-1220,15096,212,-658,853,-202
686,2,-1748,14968,56,-603,934,-139
696,2,-2084,14876,-100,-539,942,-69
706,2,-2408,14840,-76,-495,811,-11
716,2,-2620,14872,-256,-455,517,47
726,2,-2692,14948,-228,-411,151,104
736,2,-2764,15024,-204,-364,-219,161
746,2,-2752,15056,-380,-290,-606,222
756,2,-2776,15380,-476,-231,-921,286
766,2,-2668,15536,-148,-175,-1203,349
776,2,-2204,15604,-176,-85,-1368,423
786,2,-2060,15656,44,14,-1374,545
796,2,-2032,16100,0,63,-1384,466
806,2,-1812,16268,96,91,-1421,366
816,2,-1824,16228,288,141,-1381,296
826,2,-1896,16264,308,185,-1319,193
836,2,-1868,16376,732,234,-1265,82
846,2,-1968,16532,584,240,-1267,-32
856,2,-1912,16440,896,244,-1320,-166
866,2,-1976,16396,956,247,-1368,-279
876,2,-1780,16288,1128,236,-1381,-418
886,2,-1516,16208,1244,219,-1336,-523
896,2,-1464,16200,1184,174,-1162,-597
906,2,-1112,16380,1600,70,-1004,-708
916,2,-708,16132,1936,-27,-724,-634
926,2,-316,15728,1900,-89,-436,-475
936,2,-128,15772,2160,-187,-241,-314
946,2,-272,15808,1844,-291,-135,-172
956,2,-840,16000,1576,-369,-170,-129
966,2,-1312,15920,1348,-452,-376,-121
976,2,-1796,15796,1108,-517,-697,-94
986,2,-1888,15716,924,-597,-1054,-60
996,2,-1636,15824,968,-616,-1308,2
1006,2,-1040,15752,824,-652,-1203,71
1016,2,-596,15688,556,-581,-837,68
1026,2,-384,15632,576,-494,-344,23
1036,2,-696,15736,488,-410,177,-24
1046,2,-1004,15736,608,-342,532,-70
1056,2,-1500,15740,520,-320,627,-122
1066,2,-1968,15796,472,-323,575,-178
1076,2,-2228,15604,476,-312,396,-201
1086,2,-2260,15684,312,-307,149,-233
1096,2,-2324,15544,296,-278,-114,-222
1106,2,-2060,15536,292,-268,-366,-249
1116,2,-1924,15484,400,-233,-597,-262
1126,2,-1880,15428,384,-187,-761,-251
1136,2,-1560,15508,700,-166,-815,-229
1146,2,-1440,15632,740,-112,-756,-194
1156,2,-1252,15684,740,-80,-616,-140
1166,2,-1240,15800,824,-37,-496,-101
1176,2,-1272,15904,1000,-30,-400,-77
1186,2,-1448,15904,1008,-32,-398,-63
1196,2,-1452,15888,820,-45,-425,-62
1206,2,-1392,15988,1180,-72,-471,-66
1216,2,-1356,15972,1088,-87,-527,-65
1226,2,-1388,15968,1136,-95,-592,-57
1236,2,-1236,15800,1168,-123,-617,-63
1246,2,-1260,15856,1196,-142,-649,-69
1256,2,-1084,15936,1156,-158,-647,-82
1266,2,-1148,15992,1072,-164,-648,-75
1276,2,-1216,15936,1152,-190,-602,-95
1286,2,-1088,15948,1228,-195,-550,-102
1296,2,-1100,15916,1024,-176,-427,-103
1306,2,-1164,15900,832,-190,-339,-121
1316,2,-1076,15876,892,-173,-229,-138
1326,2,-1288,15896,848,-184,-170,-146
1336,2,-1264,15960,736,-177,-158,-173
1346,2,-1408,15864,820,-162,-178,-186
1356,2,-1384,15920,656,-178,-213,-193
1366,2,-1212,15932,664,-175,-220,-199
1376,2,-1244,15812,812,-180,-203,-194
1386,2,-1120,15784,724,-172,-190,-199
1396,2,-1264,15840,888,-162,-174,-208
1406,2,-1156,15876,992,-166,-110,-207
1416,2,-1224,15852,836,-146,-74,-182
1426,2,-1280,15880,1216,-147,-67,-175
1436,2,-1332,15860,1076,-147,-70,-176
1446,2,-1452,15816,1216,-161,15,-161
1456,2,-1324,15884,1428,-142,104,-175
1466,2,-1464,15968,1572,-149,161,-200
1476,2,-1456,16100,1900,-186,246,-221
1486,2,-1908,16112,1860,-284,188,-331
1496,2,-2072,16208,1972,-421,81,-363
1506,2,-2108,16196,2236,-510,83,-301
1516,2,-1924,16100,2044,-630,67,-339
1526,2,-1848,16216,2300,-741,106,-395
1536,2,-1984,16380,2568,-825,179,-429
1546,2,-2232,16448,2760,-965,187,-478
1556,2,-2448,16428,2812,-1142,187,-514
1566,2,-2420,16456,2732,-1316,112,-532
1576,2,-2376,16304,2732,-1461,90,-560
1586,2,-2220,16384,2772,-1595,122,-618
1596,2,-2136,16224,2956,-1725,207,-712
1606,2,-2252,16080,2740,-1814,266,-859
1616,2,-2124,15920,2696,-1871,345,-983
1626,2,-2208,15952,2564,-1909,455,-1077
1636,2,-2180,15924,2624,-1932,662,-1128
1646,2,-2176,16032,3176,-1978,897,-1212
1656,2,-2300,16344,3208,-2058,1190,-1396
1666,2,-2192,16360,2980,-2134,1518,-1719
1676,2,-2176,16408,2828,-2156,1807,-2053
1686,2,-2272,16284,2708,-2160,1997,-2308
1696,2,-2668,15972,2532,-2136,2082,-2450
1706,2,-2760,15852,2276,-2160,2086,-2486
1716,2,-2988,15732,2224,-2206,1952,-2541
1726,2,-2840,15696,2068,-2178,1791,-2584
1736,2,-3084,15868,2716,-2207,1628,-2593
1746,2,-3332,15876,3076,-2282,1566,-2670
1756,2,-3684,16012,3620,-2327,1407,-2853
1766,2,-3900,16288,3680,-2353,1270,-3146
1776,2,-4316,16332,3500,-2394,1064,-3386
1786,2,-4864,16268,3280,-2429,847,-3597
1796,2,-5276,16372,3440,-2431,540,-3880
1806,2,-5428,16576,3904,-2480,255,-4283
1816,2,-5980,16768,4432,-2496,90,-4822
1826,2,-6408,16944,4700,-2486,-226,-5347
1836,2,-6240,16780,4484,-2517,-716,-5742
1846,2,-6064,16596,4624,-2591,-1011,-5896
1856,2,-5840,16524,4716,-2691,-1168,-5917
1866,2,-5556,16360,4712,-2866,-1377,-5798
1876,2,-5296,16344,4856,-3003,-1257,-5593
1886,2,-5080,15840,5096,-3212,-835,-5412
1896,2,-5272,15652,4924,-3444,-617,-5469
1906,2,-5320,14632,5020,-2993,329,-5418
1916,2,-6224,14076,4496,-3626,-169,-5031
1926,2,-6732,14168,3960,-3851,-771,-4310
1936,2,-5908,14008,3956,-4000,-979,-4154
1946,2,-5600,13572,4108,-4224,-629,-4378
1956,2,-5736,13460,4816,-4521,-172,-4782
1966,2,-6440,13180,4644,-4762,-707,-4979
1976,2,-5292,12628,4816,-4943,107,-4751
1986,2,-3492,11692,4452,-5072,1317,-4373
1996,2,-4644,11476,4072,-5198,776,-4855
2006,2,-5612,11008,3264,-5247,721,-5366
2016,2,-6248,10488,3504,-5273,1017,-5339
2026,2,-6828,10540,3412,-5248,1435,-5205
2036,2,-7140,10148,2480,-5069,1545,-4891
2046,2,-7068,10124,1940,-4927,1017,-4478
2056,2,-6488,9904,2016,-4854,462,-4128
2066,2,-5720,9536,1612,-4627,360,-3885
2076,2,-5140,9248,1816,-4290,514,-3699
2086,2,-4888,8840,1852,-3856,591,-3516
2096,2,-4880,8648,1892,-3406,654,-3163
2106,2,-5244,8664,1916,-2949,654,-2808
2116,2,-5572,8744,2136,-2391,614,-2407
2126,2,-5700,8728,1968,-1838,416,-2025
2136,2,-5604,8884,1772,-1249,258,-1672
2146,2,-5804,9028,1584,-578,274,-1284
2156,2,-5816,9248,1352,211,281,-1014
2166,2,-6056,9588,1812,883,25,-941
2176,2,-6180,9792,2292,1497,-473,-938
2186,2,-6364,9912,2460,2050,-979,-814
2196,2,-6208,9908,2420,2624,-1044,-81
2206,2,-6768,9748,2340,3145,-1227,328
2216,2,-6980,10020,2500,3601,-1674,635
2226,2,-6892,10440,2528,4019,-2013,1136
2236,2,-6868,10888,2920,4447,-2264,1613
2246,2,-6784,11132,3188,4808,-2577,2146
2256,2,-6512,11508,3064,5179,-2778,2598
2266,2,-6224,11604,3228,5508,-2840,3086
2276,2,-5852,12228,3048,5748,-2724,3431
2286,2,-5160,13144,3300,6012,-1993,3636
2296,2,-1956,15192,3756,5229,-6,4004
2306,2,-3384,16780,8168,4191,-690,3717
2316,2,-7876,15004,10848,4469,-1695,2880
2326,2,-8340,11964,8924,4656,-1482,3405
2336,2,-5368,10500,6668,4620,-940,5113
2346,2,-1856,11148,3928,4580,512,6425
2356,2,-1964,12484,2532,4983,1708,6513
2366,2,-3276,14208,1376,5127,2462,5861
2376,2,-5308,14420,2248,5079,2236,5289
2386,2,-6072,13528,2492,5187,1391,5540
2396,2,-6568,13532,2648,5078,707,6192
2406,2,-7036,15084,2956,4638,91,6615
2416,2,-6144,15488,3360,4512,138,6804
2426,2,-3780,15780,2716,4499,1592,6709
2436,2,-2436,17012,3904,4242,3326,6318
2446,2,-2464,17152,4412,4211,5841,6128
2456,2,-4152,17156,3408,4204,7528,5717
2466,2,-6104,16828,2332,3902,7758,5533
2476,2,-7092,15684,1560,3573,6677,5620
2486,2,-7064,14388,888,3429,5403,5732
2496,2,-6864,14440,1012,3298,4137,5619
2506,2,-7280,14552,1304,3109,3019,5075
2516,2,-6600,14900,2376,2982,2430,5256
2526,2,-6768,14812,2828,3071,2295,5407
2536,2,-6760,14496,3028,3235,1852,5271
2546,2,-6856,14544,3092,3315,1176,5182
2556,2,-7056,14860,3276,3354,374,5084
2566,2,-7260,15028,3572,3350,-594,4979
2576,2,-7484,15320,3516,3248,-1577,4884
2586,2,-7484,15516,3720,3059,-2573,4694
2596,2,-7016,15884,3616,2790,-3389,4502
2606,2,-6492,16124,3552,2426,-3913,4291
2616,2,-5684,16308,3456,2057,-4102,4053
2626,2,-5056,16712,3096,1643,-4086,3773
2636,2,-4384,16880,2876,1232,-3897,3492
2646,2,-3652,17152,2536,876,-3564,3129
2656,2,-3088,17156,1896,542,-3144,2772
2666,2,-2652,16808,1884,302,-2564,2420
2676,2,-2248,16656,1324,180,-1816,2076
2686,2,-1932,16520,1436,160,-974,1795
2696,2,-2128,16636,1052,202,-185,1526
2706,2,-2044,16664,1324,164,541,1400
2716,2,-2512,17344,1248,234,1172,1119
2726,2,-3152,17820,1340,28,1248,372
2736,2,-3764,18200,1732,-396,1297,-378
2746,2,-3640,18136,2468,-727,1486,-653
2756,2,-3364,18140,2640,-920,2108,-1011
2766,2,-3184,18088,2476,-1203,2657,-1692
2776,2,-3180,18012,2424,-1377,3165,-2434
2786,2,-3304,17608,2436,-1502,3704,-3052
2796,2,-3388,17436,2232,-1727,4329,-3629
2806,2,-3316,17248,1968,-1880,5004,-4168
2816,2,-3724,17036,1956,-2046,5805,-4682
2826,2,-4740,17152,1656,-2099,6669,-5108
2836,2,-3796,16932,-988,-2096,7267,-5332
2846,2,-5844,17216,2052,-2156,7859,-5360
2856,2,-7376,17240,1724,-2445,7691,-6274
2866,2,-7856,17304,1460,-2727,6749,-7280
2876,2,-8224,17320,680,-2978,5784,-7767
2886,2,-8488,17152,168,-3105,4896,-8276
2896,2,-8388,16952,-180,-3211,4030,-8786
2906,2,-8556,16576,-84,-3254,3184,-9068
2916,2,-8260,16356,212,-3279,2576,-9236
2926,2,-8500,16644,760,-3416,1902,-9313
2936,2,-8656,16912,960,-3596,1057,-9425
2946,2,-8684,16880,1284,-3889,171,-9521
2956,2,-8776,16864,752,-4081,-645,-9589
2966,2,-8404,15940,1016,-3977,-643,-8890
2976,2,-10036,15976,1088,-4357,-1720,-10315
2986,2,-8544,16028,1320,-4587,-2695,-10034
2996,2,-6916,15772,1456,-4449,-2500,-8693
3006,2,-7984,14940,1632,-4249,-2420,-8896
3016,2,-8628,15016,2252,-4308,-3249,-9316
3026,2,-9040,14948,1920,-4434,-3894,-9133
3036,2,-9112,14756,1588,-4512,-4115,-8690
3046,2,-9140,14656,1400,-4531,-4495,-8347
3056,2,-9572,14672,1680,-4710,-5467,-8299
3066,2,-9928,13624,2264,-4721,-6139,-8362
3076,2,-9688,12444,1612,-5029,-7371,-8591
3086,2,-9692,11944,3004,-5177,-8882,-9108
3096,2,-9168,11328,3240,-5157,-9706,-9023
3106,2,-7876,11288,3816,-4949,-9101,-8317
3116,2,-6892,11108,4212,-4815,-8250,-7406
3126,2,-7172,10712,4284,-4649,-7638,-6883
3136,2,-7440,10116,4096,-4485,-6894,-6609
3146,2,-7424,9880,4284,-4443,-6635,-6497
3156,2,-7676,9748,4360,-4467,-6668,-6550
3166,2,-7584,9720,4264,-4231,-6207,-6591
3176,2,-7096,8864,4388,-4300,-6782,-6003
3186,2,-6496,8564,4044,-4182,-6359,-5486
3196,2,-5572,8364,4020,-4026,-5915,-4822
3206,2,-5028,7632,4720,-3935,-5403,-4236
3216,2,-4764,7136,4988,-3840,-5031,-3708
3226,2,-4128,6396,5208,-3379,-4026,-3172
3236,2,-4028,6664,4556,-3216,-2831,-2250
3246,2,-4164,6272,4288,-2877,-2190,-1656
3256,2,-4800,6572,4096,-2467,-1756,-1564
3266,2,-4412,6856,3828,-2095,-1291,-998
