time_ms,label,ax,ay,az,gx,gy,gz
596,2,-2376,15328,960,-422,-984,492
606,2,-2348,15432,1048,-470,-1308,551
616,2,-2280,15480,1016,-539,-1615,562
626,2,-2276,15608,1012,-582,-1851,555
636,2,-2048,15548,1020,-659,-2048,525
646,2,-1780,15616,1128,-698,-2148,443
656,2,-1556,15632,1032,-748,-2156,324
666,2,-1376,15696,840,-777,-2139,196
676,2,-1328,15500,832,-805,-2099,69
686,2,-1296,15588,652,-823,-2096,-35
696,2,-1240,15620,660,-870,-2117,-118
706,2,-1200,15420,264,-882,-2146,-231
716,2,-848,15352,644,-965,-2273,-276
726,2,-828,15328,424,-982,-2292,-320
736,2,-512,15164,196,-1012,-2344,-367
746,2,-316,14972,228,-1031,-2371,-404
756,2,-108,14916,136,-1029,-2283,-488
766,2,76,14968,84,-1026,-2198,-556
776,2,440,15040,32,-981,-2082,-614
786,2,464,15240,128,-947,-1910,-636
796,2,716,15388,296,-892,-1672,-643
806,2,820,15436,276,-809,-1260,-633
816,2,1044,15360,324,-751,-832,-621
826,2,1192,14960,324,-633,-385,-620
836,2,1200,15404,444,-509,260,-681
846,2,984,16140,256,-382,721,-751
856,2,688,16600,580,-333,1045,-755
866,2,900,16340,576,-247,1538,-768
876,2,744,15916,496,-145,1919,-868
886,2,340,15964,404,-13,2213,-984
896,2,40,16120,608,87,2483,-1054
906,2,-428,16216,664,231,2570,-1071
916,2,-956,16256,1040,323,2381,-1030
926,2,-1352,16352,1316,343,2107,-988
936,2,-1368,16076,1788,329,1804,-942
946,2,-1432,16044,2056,270,1598,-908
956,2,-1416,16076,2224,208,1554,-905
966,2,-1648,15948,2068,169,1646,-870
976,2,-1960,15772,1932,183,1669,-793
986,2,-2588,15684,1908,147,1534,-670
996,2,-3024,15656,1880,79,1131,-528
1006,2,-3280,15736,1996,-45,661,-438
1016,2,-3264,15760,1792,-158,260,-343
1026,2,-3008,15624,1772,-233,-51,-249
1036,2,-2860,15516,1588,-262,-246,-190
1046,2,-2876,15544,1628,-279,-314,-141
1056,2,-2632,15500,1296,-332,-390,-146
1066,2,-2540,15532,1328,-351,-447,-157
1076,2,-2388,15248,972,-370,-428,-189
1086,2,-2360,15148,792,-366,-412,-202
1096,2,-2248,15004,576,-325,-323,-211
1106,2,-2204,15096,504,-308,-256,-261
1116,2,-2160,15104,544,-248,-242,-320
1126,2,-1984,15208,192,-202,-217,-382
1136,2,-1856,15352,140,-140,-178,-374
1146,2,-1716,15488,80,-61,-127,-373
1156,2,-1524,15568,-60,57,-70,-349
1166,2,-1556,15600,-248,201,62,-310
1176,2,-1592,15772,8,258,114,-329
1186,2,-1596,15744,44,355,137,-296
1196,2,-1448,15636,264,465,216,-232
1206,2,-1184,15612,392,556,309,-151
1216,2,-1236,15684,480,617,395,-58
1226,2,-1052,15796,408,689,476,13
1236,2,-1144,15804,636,756,514,112
1246,2,-1412,15952,812,771,513,227
1256,2,-1436,16116,824,786,494,305
1266,2,-1712,16052,1004,790,396,386
1276,2,-1860,16320,1084,748,248,411
1286,2,-1956,16328,988,693,56,447
1296,2,-2036,16228,1184,647,-138,462
1306,2,-1880,16168,988,572,-344,460
1316,2,-2024,16048,1088,509,-523,445
1326,2,-1744,15928,1120,446,-682,412
1336,2,-1784,15976,1260,378,-820,401
1346,2,-1764,16048,1100,311,-933,386
1356,2,-1820,16244,1000,223,-1009,415
1366,2,-1828,16340,920,143,-1096,430
1376,2,-1888,16320,960,79,-1170,472
1386,2,-1892,16436,572,-3,-1266,487
1396,2,-1940,16392,484,-59,-1354,519
1406,2,-1880,16400,296,-109,-1410,536
1416,2,-1784,16388,408,-167,-1453,540
1426,2,-1792,16340,316,-195,-1473,503
1436,2,-1496,16212,220,-229,-1417,469
1446,2,-1384,16216,200,-227,-1370,447
1456,2,-1260,16220,168,-236,-1256,364
1466,2,-1200,16288,180,-225,-1144,305
1476,2,-1124,16120,364,-198,-1031,250
1486,2,-952,16300,244,-184,-854,162
1496,2,-928,16164,188,-157,-653,85
1506,2,-876,16296,288,-135,-498,17
1516,2,-836,16280,148,-99,-389,-43
1526,2,-824,16108,400,-87,-302,-88
1536,2,-928,16072,472,-108,-273,-162
1546,2,-820,16020,232,-110,-276,-215
1556,2,-772,15912,216,-131,-278,-210
1566,2,-752,15964,224,-119,-294,-198
1576,2,-632,15960,400,-126,-323,-196
1586,2,-664,16036,380,-132,-388,-162
1596,2,-688,15940,260,-133,-427,-143
1606,2,-840,15980,304,-142,-501,-129
1616,2,-844,15952,424,-167,-569,-114
1626,2,-984,16036,164,-149,-653,-114
1636,2,-1040,15952,196,-155,-748,-114
1646,2,-996,15992,336,-151,-838,-110
1656,2,-1000,15884,408,-145,-871,-113
1666,2,-844,15892,256,-157,-838,-116
1676,2,-680,15968,536,-123,-712,-112
1686,2,-764,15992,444,-99,-541,-115
1696,2,-764,15968,504,-88,-412,-113
1706,2,-940,15968,512,-69,-340,-135
1716,2,-1100,16052,540,-67,-330,-148
1726,2,-1028,16072,440,-81,-353,-164
1736,2,-1160,16068,388,-98,-356,-163
1746,2,-1080,16132,500,-67,-340,-135
1756,2,-1176,16196,772,-56,-243,-134
1766,2,-1020,16352,1264,0,-107,-204
1776,2,-788,16292,1412,35,100,-332
1786,2,-900,16584,1440,50,329,-474
1796,2,-1032,16800,1504,-7,502,-541
1806,2,-1428,16876,1404,-100,569,-631
1816,2,-1856,17052,1168,-201,529,-783
1826,2,-1984,16852,1508,-334,398,-924
1836,2,-1904,16904,1700,-450,276,-1024
1846,2,-1936,16888,1816,-581,240,-1098
1856,2,-1772,16732,1944,-694,458,-1152
1866,2,-2052,16648,1844,-745,754,-1252
1876,2,-2492,16568,1628,-749,974,-1405
1886,2,-3020,16436,1440,-751,1096,-1544
1896,2,-3560,16364,1444,-739,1054,-1652
1906,2,-4016,16356,1200,-724,916,-1733
1916,2,-3868,16408,1216,-732,683,-1818
1926,2,-3560,16468,1328,-744,505,-1892
1936,2,-3336,16548,1204,-740,375,-1923
1946,2,-3224,16404,1376,-748,321,-1970
1956,2,-3096,16240,1548,-777,290,-2087
1966,2,-2988,15992,1552,-800,209,-2194
1976,2,-2976,15584,1364,-843,117,-2240
1986,2,-3056,15336,1416,-867,13,-2262
1996,2,-3004,15232,1500,-878,-67,-2202
2006,2,-3032,15064,1196,-865,-116,-2093
2016,2,-3032,15024,1308,-885,-182,-1954
2026,2,-3040,15352,1180,-921,-304,-1858
2036,2,-2908,15400,1268,-982,-470,-1792
2046,2,-2860,15312,1120,-1045,-649,-1697
2056,2,-2520,15132,1052,-1091,-746,-1587
2066,2,-1836,14780,388,-1073,-649,-1347
2076,2,-1940,14640,492,-1127,-447,-1247
2086,2,-1908,14708,452,-1131,-291,-1213
2096,2,-2156,14624,308,-1113,-243,-1157
2106,2,-2168,14512,232,-1100,-154,-1029
2116,2,-2156,14616,64,-1081,-168,-930
2126,2,-2168,14704,-20,-1068,-225,-858
2136,2,-2052,14764,56,-1040,-306,-737
2146,2,-2124,14648,-176,-979,-450,-644
2156,2,-2164,14580,-228,-903,-634,-571
2166,2,-2180,14516,-168,-833,-828,-467
2176,2,-2100,14432,-296,-750,-1093,-393
2186,2,-2012,14444,84,-710,-1326,-355
2196,2,-1972,14764,16,-721,-1548,-366
2206,2,-1660,14796,-208,-766,-1750,-442
2216,2,-1392,14664,-364,-801,-1839,-532
2226,2,-1336,14772,-600,-769,-1821,-605
2236,2,-1220,15180,-936,-708,-1762,-608
2246,2,-1232,15832,-924,-633,-1724,-576
2256,2,-1100,16480,-992,-630,-1746,-572
2266,2,-664,16688,-824,-623,-1663,-543
2276,2,-260,16508,-848,-605,-1470,-550
2286,2,64,16404,-620,-518,-1134,-566
2296,2,296,16508,-196,-476,-537,-547
2306,2,488,16372,-32,-392,160,-527
2316,2,392,16664,-100,-212,786,-507
2326,2,232,16644,-180,-59,1383,-456
2336,2,-24,16520,-228,47,1859,-380
2346,2,-468,16556,64,166,2154,-277
2356,2,-956,16356,108,312,2212,-114
2366,2,-1504,16120,396,443,2084,87
2376,2,-2000,15836,472,566,1817,304
2386,2,-2232,15720,756,654,1409,509
2396,2,-2224,15568,872,699,927,724
2406,2,-2388,15328,1236,740,513,936
2416,2,-2108,15304,1272,759,154,1108
2426,2,-2084,15316,1760,753,-103,1307
2436,2,-1924,15428,1828,717,-262,1500
2446,2,-1836,15332,1512,681,-324,1660
2456,2,-1908,15504,1792,656,-378,1847
2466,2,-1904,15444,1812,642,-401,2065
2476,2,-2052,15580,1496,630,-475,2179
2486,2,-2316,15548,1500,595,-664,2228
2496,2,-2340,15548,1480,600,-967,2353
2506,2,-2576,15552,1416,594,-1233,2484
2516,2,-2624,15580,1252,571,-1529,2568
2526,2,-2676,15648,1340,559,-1847,2602
2536,2,-2416,15832,1792,479,-2046,2632
2546,2,-1864,16156,2176,306,-2067,2640
2556,2,-1340,15976,2000,130,-1870,2590
2566,2,-908,15764,1740,27,-1473,2467
2576,2,-916,15632,1448,45,-1005,2410
2586,2,-1328,15704,1468,95,-538,2482
2596,2,-1732,15564,1304,126,-208,2616
2606,2,-2040,15460,1240,150,-59,2677
2616,2,-2168,15384,1648,104,-47,2659
2626,2,-2348,15496,1968,31,-178,2537
2636,2,-3096,15484,1808,-88,-786,1927
2646,2,-2748,15464,1912,-124,-1191,1834
2656,2,-2196,15140,1748,-83,-995,1984
2666,2,-1740,15180,1828,-11,-703,2023
2676,2,-1760,15432,1888,-21,-615,1807
2686,2,-1736,15704,1792,40,-612,1510
2696,2,-1628,15884,1544,54,-533,1319
2706,2,-1580,16060,1864,66,-357,1204
2716,2,-1536,16272,1712,89,-245,1017
2726,2,-1664,16408,1532,104,-165,764
2736,2,-1796,16632,1700,85,-213,490
2746,2,-2364,16704,1764,36,-375,128
2756,2,-2516,16512,1956,-23,-785,-189
2766,2,-2460,16048,2168,-48,-991,-284
2776,2,-2444,16112,2316,27,-1146,-334
2786,2,-2348,16060,2232,28,-1394,-416
2796,2,-2068,15924,2128,-44,-1561,-434
2806,2,-1920,15644,2392,-85,-1650,-478
2816,2,-1740,15604,2304,-118,-1674,-553
2826,2,-1608,15612,2176,-209,-1676,-643
2836,2,-1240,15636,1608,-293,-1652,-670
2846,2,-896,15492,1584,-352,-1498,-671
2856,2,-836,15516,1388,-418,-1363,-876
2866,2,-792,15412,1408,-491,-1366,-1138
2876,2,-580,15232,1156,-538,-1279,-1214
2886,2,-612,14936,1348,-552,-1118,-1245
2896,2,-748,14760,1388,-515,-1056,-1367
2906,2,-900,14912,1484,-457,-1021,-1509
2916,2,-824,15260,1576,-454,-1041,-1559
2926,2,-772,15636,1868,-451,-1126,-1508
2936,2,-964,15940,2180,-528,-1044,-1537
2946,2,-632,16304,2460,-516,-870,-1545
2956,2,-548,16420,2428,-543,-660,-1698
2966,2,-460,16340,2220,-581,-404,-1734
2976,2,-508,16136,2424,-597,-121,-1768
2986,2,-256,15992,2392,-496,93,-1680
2996,2,-416,16244,2328,-391,395,-1614
3006,2,-760,16768,2404,-366,549,-1712
3016,2,-1296,17028,2660,-409,311,-1939
3026,2,-1452,17008,2848,-425,21,-1978
3036,2,-1540,17080,3052,-459,-141,-1916
3046,2,-1984,17532,3172,-520,-386,-1858
3056,2,-2232,17868,3304,-579,-615,-1916
3066,2,-2292,17664,3308,-607,-763,-2123
3076,2,-2052,17812,4272,-603,-873,-2380
3086,2,-1756,17320,3460,-376,-548,-2318
3096,2,-2196,16956,3148,-293,-779,-3019
3106,2,-2352,17104,3184,-242,-1307,-3371
3116,2,-2704,17680,3168,-313,-1519,-3551
3126,2,-3060,17832,3056,-391,-1747,-3632
3136,2,-3412,17816,2964,-495,-2111,-3919
3146,2,-3672,17820,2924,-587,-2551,-4301
3156,2,-3972,17856,2980,-709,-2935,-4601
3166,2,-4208,17772,2816,-824,-3276,-4823
3176,2,-4044,17640,2964,-972,-3741,-4972
3186,2,-3360,17096,2936,-1125,-4096,-4949
3196,2,-2772,16820,2812,-1213,-4230,-4919
3206,2,-2384,16416,2720,-1315,-4365,-4844
3216,2,-2004,16224,2696,-1432,-4179,-4612
3226,2,-1912,15916,2676,-1617,-3792,-4301
3236,2,-2196,15728,2648,-1732,-3408,-4100
3246,2,-2368,15568,2568,-1910,-2895,-3936
3256,2,-2768,15300,2608,-2029,-2207,-3769
3266,2,-2268,15100,1976,-2105,-1519,-3375
